Tiempo ( s )	T ( K )
0.0000	298.891
0.1000	298.890
0.2000	298.889
0.3000	298.889
0.4000	298.889
0.5000	298.889
0.6000	298.889
0.7000	298.887
0.8000	298.887
0.9000	298.879
1.0000	298.874
1.1000	298.871
1.2000	298.863
1.3000	298.851
1.4000	298.845
1.5000	298.835
1.6000	298.830
1.7000	298.824
1.8000	298.816
1.9000	298.816
2.0000	298.810
2.1000	298.804
2.2000	298.806
2.3000	298.805
2.4000	298.802
2.5000	298.801
2.6000	298.799
2.7000	298.797
2.8000	298.799
2.9000	298.801
3.0000	298.802
3.1000	298.806
3.2000	298.808
3.3000	298.806
3.4000	298.801
3.5000	298.802
3.6000	298.806
3.7000	298.807
3.8000	298.811
3.9000	298.815
4.0000	298.811
4.1000	298.806
4.2000	298.810
4.3000	298.809
4.4000	298.810
4.5000	298.811
4.6000	298.813
4.7000	298.808
4.8000	298.807
4.9000	298.808
5.0000	298.808
5.1000	298.806
5.2000	298.808
5.3000	298.811
5.4000	298.808
5.5000	298.810
5.6000	298.809
5.7000	298.811
5.8000	298.807
5.9000	298.810
6.0000	298.808
6.1000	298.805
6.2000	298.804
6.3000	298.806
6.4000	298.801
6.5000	298.800
6.6000	298.800
6.7000	298.801
6.8000	298.806
6.9000	298.806
7.0000	298.804
7.1000	298.801
7.2000	298.805
7.3000	298.806
7.4000	298.807
7.5000	298.806
7.6000	298.806
7.7000	298.807
7.8000	298.807
7.9000	298.806
8.0000	298.806
8.1000	298.802
8.2000	298.805
8.3000	298.806
8.4000	298.805
8.5000	298.806
8.6000	298.805
8.7000	298.806
8.8000	298.808
8.9000	298.811
9.0000	298.812
9.1000	298.811
9.2000	298.811
9.3000	298.813
9.4000	298.816
9.5000	298.817
9.6000	298.815
9.7000	298.805
9.8000	298.801
9.9000	298.806
10.0000	298.806
10.1000	298.805
10.2000	298.806
10.3000	298.808
10.4000	298.811
10.5000	298.811
10.6000	298.811
10.7000	298.814
10.8000	298.816
10.9000	298.816
11.0000	298.818
11.1000	298.819
11.2000	298.820
11.3000	298.819
11.4000	298.820
11.5000	298.821
11.6000	298.821
11.7000	298.816
11.8000	298.816
11.9000	298.816
12.0000	298.816
12.1000	298.816
12.2000	298.817
12.3000	298.818
12.4000	298.821
12.5000	298.819
12.6000	298.816
12.7000	298.819
12.8000	298.821
12.9000	298.823
13.0000	298.825
13.1000	298.827
13.2000	298.830
13.3000	298.829
13.4000	298.826
13.5000	298.826
13.6000	298.821
13.7000	298.811
13.8000	298.811
13.9000	298.811
14.0000	298.811
14.1000	298.813
14.2000	298.807
14.3000	298.806
14.4000	298.807
14.5000	298.806
14.6000	298.804
14.7000	298.801
14.8000	298.801
14.9000	298.801
15.0000	298.800
15.1000	298.799
15.2000	298.800
15.3000	298.801
15.4000	298.799
15.5000	298.799
15.6000	298.798
15.7000	298.799
15.8000	298.799
15.9000	298.799
16.0000	298.800
16.1000	298.804
16.2000	298.806
16.3000	298.807
16.4000	298.806
16.5000	298.804
16.6000	298.806
16.7000	298.806
16.8000	298.806
16.9000	298.808
17.0000	298.811
17.1000	298.813
17.2000	298.816
17.3000	298.818
17.4000	298.820
17.5000	298.821
17.6000	298.819
17.7000	298.817
17.8000	298.818
17.9000	298.818
18.0000	298.821
18.1000	298.821
18.2000	298.824
18.3000	298.825
18.4000	298.825
18.5000	298.828
18.6000	298.825
18.7000	298.821
18.8000	298.821
18.9000	298.821
19.0000	298.824
19.1000	298.825
19.2000	298.827
19.3000	298.829
19.4000	298.826
19.5000	298.825
19.6000	298.827
19.7000	298.828
19.8000	298.827
19.9000	298.825
20.0000	298.822
20.1000	298.819
20.2000	298.821
20.3000	298.821
20.4000	298.821
20.5000	298.821
20.6000	298.820
20.7000	298.822
20.8000	298.825
20.9000	298.822
21.0000	298.821
21.1000	298.821
21.2000	298.821
21.3000	298.821
21.4000	298.816
21.5000	298.816
21.6000	298.816
21.7000	298.818
21.8000	298.818
21.9000	298.818
22.0000	298.817
22.1000	298.818
22.2000	298.819
22.3000	298.818
22.4000	298.816
22.5000	298.816
22.6000	298.813
22.7000	298.810
22.8000	298.811
22.9000	298.811
23.0000	298.809
23.1000	298.810
23.2000	298.811
23.3000	298.811
23.4000	298.810
23.5000	298.808
23.6000	298.810
23.7000	298.811
23.8000	298.813
23.9000	298.816
24.0000	298.816
24.1000	298.818
24.2000	298.819
24.3000	298.814
24.4000	298.809
24.5000	298.806
24.6000	298.805
24.7000	298.801
24.8000	298.800
24.9000	298.801
25.0000	298.804
25.1000	298.806
25.2000	298.806
25.3000	298.807
25.4000	298.809
25.5000	298.811
25.6000	298.810
25.7000	298.811
25.8000	298.811
25.9000	298.811
26.0000	298.812
26.1000	298.811
26.2000	298.810
26.3000	298.811
26.4000	298.812
26.5000	298.814
26.6000	298.816
26.7000	298.816
26.8000	298.810
26.9000	298.806
27.0000	298.806
27.1000	298.806
27.2000	298.806
27.3000	298.807
27.4000	298.810
27.5000	298.811
27.6000	298.814
27.7000	298.816
27.8000	298.816
27.9000	298.814
28.0000	298.814
28.1000	298.816
28.2000	298.818
28.3000	298.819
28.4000	298.821
28.5000	298.821
28.6000	298.821
28.7000	298.816
28.8000	298.816
28.9000	298.816
29.0000	298.817
29.1000	298.819
29.2000	298.821
29.3000	298.824
29.4000	298.824
29.5000	298.822
29.6000	298.816
29.7000	298.818
29.8000	298.819
29.9000	298.821
30.0000	298.821
30.1000	298.822
30.2000	298.822
30.3000	298.821
30.4000	298.818
30.5000	298.819
30.6000	298.821
30.7000	298.821
30.8000	298.821
30.9000	298.816
31.0000	298.816
31.1000	298.817
31.2000	298.819
31.3000	298.818
31.4000	298.818
31.5000	298.821
31.6000	298.821
31.7000	298.821
31.8000	298.817
31.9000	298.816
32.0000	298.816
32.1000	298.816
32.2000	298.819
32.3000	298.820
32.4000	298.821
32.5000	298.822
32.6000	298.819
32.7000	298.818
32.8000	298.819
32.9000	298.821
33.0000	298.822
33.1000	298.822
33.2000	298.825
33.3000	298.822
33.4000	298.816
33.5000	298.815
33.6000	298.814
33.7000	298.816
33.8000	298.816
33.9000	298.816
34.0000	298.816
34.1000	298.816
34.2000	298.817
34.3000	298.818
34.4000	298.816
34.5000	298.815
34.6000	298.816
34.7000	298.816
34.8000	298.816
34.9000	298.818
35.0000	298.819
35.1000	298.816
35.2000	298.815
35.3000	298.816
35.4000	298.813
35.5000	298.810
35.6000	298.811
35.7000	298.808
35.8000	298.807
35.9000	298.809
36.0000	298.810
36.1000	298.811
36.2000	298.810
36.3000	298.808
36.4000	298.806
36.5000	298.807
36.6000	298.806
36.7000	298.806
36.8000	298.809
36.9000	298.811
37.0000	298.813
37.1000	298.814
37.2000	298.811
37.3000	298.807
37.4000	298.808
37.5000	298.810
37.6000	298.811
37.7000	298.811
37.8000	298.807
37.9000	298.808
38.0000	298.809
38.1000	298.811
38.2000	298.813
38.3000	298.814
38.4000	298.816
